Folder: Edit_Functionality_Changes_Complete/Instruments

File: EIS_C01.mpt
EC-Lab ASCII FILE
Nb header lines : 68

Galvano Electrochemical Impedance Spectroscopy

Run on channel : 1 (SN 66181)
User :
CE vs. WE compliance from -10 V to 10 V
Electrode connection : standard
Potential control : Ewe
Ewe ctrl range : min = -10.00 V, max = 10.00 V
Safety Limits :
	Do not start on E overload
Acquisition started on : 10/21/2024 15:48:27.372
Technique started on : 10/21/2024 15:50:53.754
Loaded Setting File :  NONE
Saved on :
	File : 3-12-002_BoL-02_03_GEIS_C01.mpr
	Directory : C:\Users\patri\OneDrive\Desktop\Electrolysis Data\October_21_2024-3-12-02\Pstat\
	Host : 10.0.109.145
Device : SP-50e (SN .003546)
Address : USB
EC-Lab for windows v11.43 (software)
Internet server v11.40 (firmware)
Command interpretor v11.40 (firmware)
Electrode material :
Initial state :
Electrolyte :
Comments :
Electrode surface area : 4.000 cm²
Characteristic mass : 0.001 g
Volume (V) : 0.001 cm³
Thickness (t) : 0.000 cm
Diameter (d) : 0.000 cm
Cell constant (k=t/A) : 0.000 cm-1
Cycle Definition : Charge/Discharge alternance
Mode                Single sine
Is                  -500.000
unit Is             mA
vs.                 <None>
tIs (h:m:s)         0:00:0.0000
record              0
dE (mV)             0.000
dt (s)              0.000
fi                  1.000
unit fi             MHz
ff                  100.000
unit ff             mHz
Nd                  10
Points              per decade
spacing             Logarithmic
Ia/Va               Ia
Ia                  250.000
unit  Ia            mA
va pourcent         0.10
pw                  0.10
Na                  2
corr                0
E range min (V)     -10.000
E range max (V)     10.000
I Range             1 A
Bandwidth           5
nc cycles           0
goto Ns'            0
nr cycles           0
inc. cycle          0

freq/Hz	Re(Z)/Ohm	-Im(Z)/Ohm	|Z|/Ohm	Phase(Z)/deg	time/s	<Ewe>/V	<I>/mA	Cs/µF	Cp/µF	cycle number	|Ewe|/V	|I|/A	Ns	I Range	(Q-Qo)/mA.h	Re(Y)/Ohm-1	Im(Y)/Ohm-1	|Y|/Ohm-1	Phase(Y)/deg	Re(C)/nF	Im(C)/nF	|C|/nF	Phase(C)/deg	Re(M)	Im(M)	|M|	Phase(M)/deg	Re(Permittivity)	Im(Permittivity)	|Permittivity|	Phase(Permittivity)/deg	Re(Resistivity)/Ohm.cm	Im(Resistivity)/Ohm.cm	|Resistivity|/Ohm.cm	Phase(Resistivity)/deg	Re(Conductivity)/mS/cm	Im(Conductivity)/mS/cm	|Conductivity|/mS/cm	Phase(Conductivity)/deg	Tan(Delta)	Loss Angle(Delta)/deg	dq/mA.h
1.00002e+06	0.441418	0.151815	0.466795	-18.9794	146.382	-3.34992	-500.279	1.04833	0.110885	1	7.33247e-05	0.000157081	0	9	-0.454244	2.0258	0.696725	2.14227	18.9794	110.885	322.411	340.946	-71.0206	0.0000000E+000	0.0000000E+000	0.0000000E+000	71.0206	0.0000000E+000	0.0000000E+000	0.0000000E+000	-71.0206	0.0000000E+000	0.0000000E+000	0.0000000E+000	-18.9794	0.0000000E+000	0.0000000E+000	0.0000000E+000	18.9794	2.90761	18.9794	-0.454244
392824	0.342046	0.0673836	0.34862	-11.1446	155.704	-3.34913	-500.095	6.01268	0.224631	1	0.00160076	0.00459171	0	9	-1.74712	2.81436	0.554432	2.86845	11.1446	224.632	1140.25	1162.17	-78.8554	0.0000000E+000	0.0000000E+000	0.0000000E+000	78.8554	0.0000000E+000	0.0000000E+000	0.0000000E+000	-78.8554	0.0000000E+000	0.0000000E+000	0.0000000E+000	-11.1446	0.0000000E+000	0.0000000E+000	0.0000000E+000	11.1446	5.07611	11.1446	-0.424162
154311	0.354448	0.0809728	0.36358	-12.8682	167.936	-3.34546	-500.26	12.7375	0.631777	1	0.030906	0.0850048	0	9	-3.44418	2.68135	0.612547	2.75043	12.8682	631.777	2765.52	2836.77	-77.1318	0.0000000E+000	0.0000000E+000	0.0000000E+000	77.1318	0.0000000E+000	0.0000000E+000	0.0000000E+000	-77.1318	0.0000000E+000	0.0000000E+000	0.0000000E+000	-12.8682	0.0000000E+000	0.0000000E+000	0.0000000E+000	12.8682	4.37738	12.8682	-0.424345
60616.5	0.424941	0.113239	0.43977	-14.9215	177.394	-3.34691	-500.228	23.1865	1.53735	1	0.11257	0.255976	0	9	-4.75547	2.19724	0.585522	2.27392	14.9215	1537.35	5769.08	5970.41	-75.0785	0.0000000E+000	0.0000000E+000	0.0000000E+000	75.0785	0.0000000E+000	0.0000000E+000	0.0000000E+000	-75.0785	0.0000000E+000	0.0000000E+000	0.0000000E+000	-14.9215	0.0000000E+000	0.0000000E+000	0.0000000E+000	14.9215	3.75262	14.9215	-0.039005
23808.6	0.508273	0.0933606	0.516777	-10.4082	179.114	-3.34579	-500.165	71.6015	2.33692	1	0.132547	0.256488	0	9	-4.99277	1.90323	0.349589	1.93507	10.4082	2336.92	12722.6	12935.5	-79.5918	0.0000000E+000	0.0000000E+000	0.0000000E+000	79.5918	0.0000000E+000	0.0000000E+000	0.0000000E+000	-79.5918	0.0000000E+000	0.0000000E+000	0.0000000E+000	-10.4082	0.0000000E+000	0.0000000E+000	0.0000000E+000	10.4082	5.4442	10.4082	-0.0591707
9351.33	0.548709	0.058112	0.551777	-6.04548	180.4	-3.34568	-500.143	292.874	3.24852	1	0.150868	0.273421	0	9	-5.16995	1.80225	0.19087	1.81233	6.04548	3248.52	30673.3	30844.9	-83.9545	0.0000000E+000	0.0000000E+000	0.0000000E+000	83.9545	0.0000000E+000	0.0000000E+000	0.0000000E+000	-83.9545	0.0000000E+000	0.0000000E+000	0.0000000E+000	-6.04548	0.0000000E+000	0.0000000E+000	0.0000000E+000	6.04548	9.44226	6.04548	-0.039822
3676.18	0.567593	0.0445095	0.569335	-4.48385	182.246	-3.34606	-500.066	972.681	5.94485	1	0.149769	0.26306	0	9	-5.42385	1.75106	0.137315	1.75643	4.48385	5944.85	75809.7	76042.4	-85.5162	0.0000000E+000	0.0000000E+000	0.0000000E+000	85.5162	0.0000000E+000	0.0000000E+000	0.0000000E+000	-85.5162	0.0000000E+000	0.0000000E+000	0.0000000E+000	-4.48385	0.0000000E+000	0.0000000E+000	0.0000000E+000	4.48385	12.7522	4.48385	-0.063572
1443.61	0.590127	0.0472922	0.592019	-4.58184	184.091	-3.34289	-500.072	2331.2	14.8761	1	0.156882	0.264994	0	9	-5.6776	1.68374	0.134933	1.68914	4.58184	14876.1	185628	186223	-85.4182	0.0000000E+000	0.0000000E+000	0.0000000E+000	85.4182	0.0000000E+000	0.0000000E+000	0.0000000E+000	-85.4182	0.0000000E+000	0.0000000E+000	0.0000000E+000	-4.58184	0.0000000E+000	0.0000000E+000	0.0000000E+000	4.58184	12.4783	4.58184	-0.0633326
567.36	0.615022	0.0553746	0.61751	-5.14485	185.933	-3.34323	-500.068	5065.83	40.7365	1	0.163832	0.26531	0	9	-5.93178	1.61288	0.145219	1.61941	5.14485	40736.5	452443	454273	-84.8551	0.0000000E+000	0.0000000E+000	0.0000000E+000	84.8551	0.0000000E+000	0.0000000E+000	0.0000000E+000	-84.8551	0.0000000E+000	0.0000000E+000	0.0000000E+000	-5.14485	0.0000000E+000	0.0000000E+000	0.0000000E+000	5.14485	11.1066	5.14485	-0.0631966
222.79	0.653049	0.0682982	0.656611	-5.97049	187.779	-3.34321	-500.074	10459.6	113.166	1	0.17427	0.265408	0	9	-6.18779	1.51471	0.158414	1.52297	5.97049	113166	1.08207e+06	1.08797e+06	-84.0295	0.0000000E+000	0.0000000E+000	0.0000000E+000	84.0295	0.0000000E+000	0.0000000E+000	0.0000000E+000	-84.0295	0.0000000E+000	0.0000000E+000	0.0000000E+000	-5.97049	0.0000000E+000	0.0000000E+000	0.0000000E+000	5.97049	9.56173	5.97049	-0.0644813
87.4534	0.698192	0.0815215	0.702935	-6.65975	189.63	-3.3396	-500.053	22324	300.252	1	0.186593	0.265448	0	9	-6.44306	1.41301	0.164984	1.42261	6.65975	300252	2.57151e+06	2.58898e+06	-83.3402	0.0000000E+000	0.0000000E+000	0.0000000E+000	83.3402	0.0000000E+000	0.0000000E+000	0.0000000E+000	-83.3402	0.0000000E+000	0.0000000E+000	0.0000000E+000	-6.65975	0.0000000E+000	0.0000000E+000	0.0000000E+000	6.65975	8.56452	6.65975	-0.0652217
34.3946	0.755271	0.0903114	0.760651	-6.81876	191.502	-3.34079	-500.063	51237.3	722.272	1	0.201929	0.265469	0	9	-6.7019	1.30536	0.156089	1.31466	6.81876	722272	6.04033e+06	6.08336e+06	-83.1812	0.0000000E+000	0.0000000E+000	0.0000000E+000	83.1812	0.0000000E+000	0.0000000E+000	0.0000000E+000	-83.1812	0.0000000E+000	0.0000000E+000	0.0000000E+000	-6.81876	0.0000000E+000	0.0000000E+000	0.0000000E+000	6.81876	8.36296	6.81876	-0.0647923
13.5009	0.814661	0.0879264	0.819392	-6.16009	193.281	-3.33709	-500.077	134072	1543.81	1	0.217529	0.265477	0	9	-6.94749	1.21337	0.130959	1.22042	6.16009	1.54381e+06	1.43038e+07	1.43869e+07	-83.8399	0.0000000E+000	0.0000000E+000	0.0000000E+000	83.8399	0.0000000E+000	0.0000000E+000	0.0000000E+000	-83.8399	0.0000000E+000	0.0000000E+000	0.0000000E+000	-6.16009	0.0000000E+000	0.0000000E+000	0.0000000E+000	6.16009	9.26526	6.16009	-0.06995
5.30741	0.869833	0.0709399	0.872721	-4.66248	195.048	-3.33223	-500.081	422715	2793.05	1	0.231691	0.265482	0	9	-7.19167	1.14205	0.0931408	1.14584	4.66248	2.79304e+06	3.42471e+07	3.43608e+07	-85.3375	0.0000000E+000	0.0000000E+000	0.0000000E+000	85.3375	0.0000000E+000	0.0000000E+000	0.0000000E+000	-85.3375	0.0000000E+000	0.0000000E+000	0.0000000E+000	-4.66248	0.0000000E+000	0.0000000E+000	0.0000000E+000	4.66248	12.2615	4.66248	-0.0635836
2.08222	0.907525	0.0510802	0.908962	-3.2215	198.135	-3.32962	-500.058	1.49637e+06	4725.57	1	0.241315	0.265485	0	9	-7.61698	1.09842	0.0618246	1.10016	3.2215	4.72557e+06	8.39577e+07	8.40906e+07	-86.7785	0.0000000E+000	0.0000000E+000	0.0000000E+000	86.7785	0.0000000E+000	0.0000000E+000	0.0000000E+000	-86.7785	0.0000000E+000	0.0000000E+000	0.0000000E+000	-3.2215	0.0000000E+000	0.0000000E+000	0.0000000E+000	3.2215	17.7667	3.2215	-0.148359
0.818234	0.924186	0.0189982	0.924381	-1.17765	205.752	-3.32817	-500.051	1.02383e+07	4324.68	1	0.245412	0.265487	0	9	-8.66649	1.08158	0.0222337	1.0818	1.17765	4.32469e+06	2.10378e+08	2.10422e+08	-88.8224	0.0000000E+000	0.0000000E+000	0.0000000E+000	88.8224	0.0000000E+000	0.0000000E+000	0.0000000E+000	-88.8224	0.0000000E+000	0.0000000E+000	0.0000000E+000	-1.17765	0.0000000E+000	0.0000000E+000	0.0000000E+000	1.17765	48.6459	1.17765	-0.349978
0.321449	0.935537	0.00342916	0.935543	-0.210014	224.938	-3.32657	-500.056	1.44384e+08	1939.85	1	0.248375	0.265487	0	9	-11.3472	1.06889	0.00391796	1.0689	0.210014	1.93986e+06	5.29226e+08	5.29229e+08	-89.79	0.0000000E+000	0.0000000E+000	0.0000000E+000	89.79	0.0000000E+000	0.0000000E+000	0.0000000E+000	-89.79	0.0000000E+000	0.0000000E+000	0.0000000E+000	-0.210014	0.0000000E+000	0.0000000E+000	0.0000000E+000	0.210014	272.818	0.210014	-0.935598
0.126203	0.94106	-0.0208675	0.941291	1.27029	273.586	-3.32485	-500.048	-6.04336e+07	-29701	1	0.249908	0.265494	0	9	-18.0814	1.06211	-0.0235517	1.06237	-1.27029	-2.9701e+07	1.33942e+09	1.33975e+09	-91.2703	0.0000000E+000	0.0000000E+000	0.0000000E+000	91.2703	0.0000000E+000	0.0000000E+000	0.0000000E+000	-91.2703	0.0000000E+000	0.0000000E+000	0.0000000E+000	1.27029	0.0000000E+000	0.0000000E+000	0.0000000E+000	-1.27029	-45.0969	-1.27029	-2.26823
0.0999041	0.942305	-0.0297445	0.942774	1.80798	294.67	-3.32391	-500.049	-5.35586e+07	-53312.4	1	0.250301	0.265494	0	9	-20.9319	1.06017	-0.0334651	1.0607	-1.80798	-5.33125e+07	1.68893e+09	1.68978e+09	-91.808	0.0000000E+000	0.0000000E+000	0.0000000E+000	91.808	0.0000000E+000	0.0000000E+000	0.0000000E+000	-91.808	0.0000000E+000	0.0000000E+000	0.0000000E+000	1.80798	0.0000000E+000	0.0000000E+000	0.0000000E+000	-1.80798	-31.6799	-1.80798	-2.85058

File: LSV_C01.mpt
EC-Lab ASCII FILE
Nb header lines : 61

Linear Sweep Voltammetry

Run on channel : 1 (SN 66181)
User :
CE vs. WE compliance from -10 V to 10 V
Electrode connection : standard
Potential control : Ewe
Ewe ctrl range : min = -10.00 V, max = 10.00 V
Safety Limits :
	Do not start on E overload
Acquisition started on : 10/21/2024 15:48:27.372
Technique started on : 10/21/2024 15:48:27.372
Loaded Setting File :  NONE
Saved on :
	File : 3-12-002_BoL-02_01_LSV_C01.mpr
	Directory : C:\Users\patri\OneDrive\Desktop\Electrolysis Data\October_21_2024-3-12-02\Pstat\
	Host : 10.0.109.145
Device : SP-50e (SN .003546)
Address : USB
EC-Lab for windows v11.43 (software)
Internet server v11.40 (firmware)
Command interpretor v11.40 (firmware)
Electrode material :
Initial state :
Electrolyte :
Comments :
Electrode surface area : 4.000 cm²
Characteristic mass : 0.001 g
Volume (V) : 0.001 cm³
Thickness (t) : 0.000 cm
Diameter (d) : 0.000 cm
Cell constant (k=t/A) : 0.000 cm-1
Cycle Definition : Charge/Discharge alternance
tR (h:m:s)          0:00:5.0000
dER/dt (mV/h)       0.0
dER (mV)            0
dtR (s)             0.0000
dE/dt               50.000
dE/dt unit          mV/s
Ei (V)              0.000
vs.                 Eoc
EL (V)              -3.500
vs.                 Ref
record              <I>
dI                  0.000
unit dI             µA
tI (s)              0.0000
step percent        50
N                   10
E range min (V)     -10.000
E range max (V)     10.000
I Range             1 A
I Range min         Unset
I Range max         Unset
I Range init        Unset
Bandwidth           5

mode	ox/red	error	control changes	time/s	control/V	Ewe/V	<I>/mA	(Q-Qo)/C	I Range	P/W
3	0	1	1	0.000000000000000E+000	0.0000000E+000	-0.669318	0.000000000000000E+000	0.0000000E+000	14	0.0000000E+000
2	0	0	1	5.2866	-0.675364	-0.675924	-0.885293	-0.000207779	9	0.000598391
2	0	0	1	5.7183	-0.696948	-0.697525	-1.23907	-0.000709713	9	0.00086428
2	0	0	1	6.15	-0.718532	-0.719113	-1.47465	-0.00133473	9	0.00106044
2	0	0	1	6.5816	-0.740113	-0.74067	-1.64246	-0.00204611	9	0.00121652
2	0	0	1	7.0133	-0.761699	-0.762245	-1.77866	-0.00282339	9	0.00135577
2	0	0	1	7.4449	-0.783278	-0.783849	-1.88789	-0.00365047	9	0.00147982
2	0	0	1	7.8766	-0.804863	-0.805466	-1.96046	-0.0045168	9	0.00157908
2	0	0	1	8.3083	-0.826448	-0.827	-2.04521	-0.00541824	9	0.00169139
2	0	0	1	8.7399	-0.848027	-0.848559	-2.13698	-0.00635489	9	0.00181335
2	0	0	1	9.1716	-0.869613	-0.870144	-2.27331	-0.00733737	9	0.00197811
2	0	0	1	9.6032	-0.891194	-0.891698	-2.4419	-0.00838272	9	0.00217744
2	0	0	1	10.0349	-0.912778	-0.913282	-2.59707	-0.00949987	9	0.00237185
2	0	0	1	10.4666	-0.934362	-0.934889	-2.71995	-0.0106818	9	0.00254286
2	0	0	1	10.8982	-0.955943	-0.956459	-2.79906	-0.0119051	9	0.00267719
2	0	0	1	11.3299	-0.977529	-0.97807	-2.83384	-0.0131491	9	0.0027717
2	0	0	1	11.7615	-0.999108	-0.999644	-2.82547	-0.0143984	9	0.00282446
2	0	0	1	12.1932	-1.02069	-1.02125	-2.78044	-0.0156359	9	0.00283951
2	0	0	1	12.6249	-1.04228	-1.04282	-2.73039	-0.0168515	9	0.00284731
2	0	0	1	13.0565	-1.06386	-1.06437	-2.66147	-0.0180397	9	0.00283279
2	0	0	1	13.4882	-1.08544	-1.08599	-2.59581	-0.0191984	9	0.00281901
2	0	0	1	13.9198	-1.10702	-1.10753	-2.52005	-0.0203235	9	0.00279102
2	0	0	1	14.3515	-1.12861	-1.12911	-2.4333	-0.0214127	9	0.00274746
2	0	0	1	14.7832	-1.15019	-1.15066	-2.35451	-0.0224677	9	0.00270924
2	0	0	1	15.2148	-1.17177	-1.17225	-2.28417	-0.0234891	9	0.00267761
2	0	0	1	15.6465	-1.19336	-1.19386	-2.20669	-0.0244772	9	0.00263448
2	0	0	1	16.0781	-1.21494	-1.21536	-2.13661	-0.0254333	9	0.00259674
2	0	0	1	16.5098	-1.23652	-1.23701	-2.07352	-0.0263589	9	0.00256497
2	0	0	1	16.9415	-1.25811	-1.25856	-2.00547	-0.0272562	9	0.00252399
2	0	0	1	17.3731	-1.27969	-1.28018	-1.95357	-0.0281275	9	0.00250092
2	0	0	1	17.8048	-1.30127	-1.30173	-1.90645	-0.028976	9	0.00248169
2	0	0	1	18.2364	-1.32285	-1.32331	-1.86576	-0.0298059	9	0.00246898
2	0	0	1	18.6681	-1.34444	-1.34491	-1.83081	-0.030619	9	0.00246226
2	0	0	1	19.0998	-1.36602	-1.36643	-1.80089	-0.0314174	9	0.00246079
2	0	0	1	19.5314	-1.3876	-1.38803	-1.7777	-0.032202	9	0.0024675
2	0	0	1	19.9631	-1.40919	-1.40962	-1.75353	-0.0329755	9	0.0024718
2	0	0	1	20.3947	-1.43077	-1.43121	-1.73179	-0.0337394	9	0.00247854
2	0	0	1	20.8264	-1.45235	-1.45273	-1.71465	-0.0344941	9	0.00249092
2	0	0	1	21.2581	-1.47394	-1.47431	-1.70037	-0.0352412	9	0.00250687
2	0	0	1	21.6897	-1.49552	-1.49591	-1.69681	-0.0359831	9	0.00253828
2	0	0	1	22.1214	-1.5171	-1.51749	-1.69764	-0.0367252	9	0.00257614
2	0	0	1	22.553	-1.53868	-1.53902	-1.70689	-0.0374699	9	0.00262693
2	0	0	1	22.9847	-1.56027	-1.56064	-1.73491	-0.0382221	9	0.00270757
2	0	0	1	23.4164	-1.58185	-1.58226	-1.78945	-0.0389918	9	0.00283138
2	0	0	1	23.848	-1.60343	-1.60381	-1.86331	-0.0397881	9	0.00298839
2	0	0	1	24.2797	-1.62502	-1.62541	-1.97009	-0.0406227	9	0.00320221
2	0	0	1	24.7113	-1.6466	-1.64696	-2.11966	-0.0415132	9	0.00349101
2	0	0	1	25.143	-1.66818	-1.66858	-2.31818	-0.0424789	9	0.00386807
2	0	0	1	25.5747	-1.68977	-1.69012	-2.55418	-0.0435397	9	0.00431688
2	0	0	1	26.0063	-1.71135	-1.71171	-2.86658	-0.0447203	9	0.00490674
2	0	0	1	26.438	-1.73293	-1.73327	-3.22746	-0.0460483	9	0.00559407
2	0	0	1	26.8696	-1.75451	-1.75484	-3.63058	-0.0475433	9	0.00637109
2	0	0	1	27.3013	-1.7761	-1.77643	-4.06264	-0.0492213	9	0.007217
2	0	0	1	27.733	-1.79768	-1.798	-4.50429	-0.0510939	9	0.00809871
2	0	0	1	28.1646	-1.81926	-1.81961	-4.90346	-0.0531483	9	0.00892241
2	0	0	1	28.5963	-1.84085	-1.84113	-5.23526	-0.0553642	9	0.00963878
2	0	0	1	29.0279	-1.86243	-1.86275	-5.50219	-0.0577143	9	0.0102492
2	0	0	1	29.4596	-1.88401	-1.88426	-5.69738	-0.0601637	9	0.0107353
2	0	0	1	29.8913	-1.9056	-1.90586	-5.8575	-0.0626869	9	0.0111636
2	0	0	1	30.3229	-1.92718	-1.92744	-6.06957	-0.0652892	9	0.0116987
2	0	0	1	30.7546	-1.94876	-1.94903	-6.32704	-0.067994	9	0.0123316
2	0	0	1	31.1863	-1.97035	-1.97061	-6.54281	-0.0708034	9	0.0128933
2	0	0	1	31.6179	-1.99193	-1.99217	-6.74068	-0.073704	9	0.0134286
2	0	0	1	32.0496	-2.01351	-2.01377	-6.91169	-0.0766874	9	0.0139186
2	0	0	1	32.4812	-2.03509	-2.03535	-7.0485	-0.0797326	9	0.0143462
2	0	0	1	32.9129	-2.05668	-2.05692	-7.13996	-0.0828263	9	0.0146863
2	0	0	1	33.3446	-2.07826	-2.0785	-7.23192	-0.0859582	9	0.0150316
2	0	0	1	33.7762	-2.09984	-2.10002	-7.3554	-0.0891352	9	0.0154465
2	0	0	1	34.2079	-2.12143	-2.12163	-7.50661	-0.0923733	9	0.0159263
2	0	0	1	34.6395	-2.14301	-2.14319	-7.65005	-0.0956749	9	0.0163955
2	0	0	1	35.0712	-2.16459	-2.16481	-7.77243	-0.0990351	9	0.0168258
2	0	0	1	35.5029	-2.18618	-2.18636	-7.92765	-0.102456	9	0.0173327
2	0	0	1	35.9345	-2.20776	-2.20836	-8.08841	-0.10594	9	0.0178621
2	0	0	1	36.3662	-2.22934	-2.22988	-8.18651	-0.109478	9	0.0182549
2	0	0	1	36.7978	-2.25092	-2.25143	-8.23764	-0.113043	9	0.0185464
2	0	0	1	37.2295	-2.27251	-2.27303	-8.31306	-0.116638	9	0.0188958
2	0	0	1	37.6612	-2.29409	-2.29465	-8.37841	-0.120255	9	0.0192255
2	0	0	1	38.0928	-2.31567	-2.31622	-8.47804	-0.123905	9	0.019637
2	0	0	1	38.5245	-2.33726	-2.33777	-8.67919	-0.12762	9	0.0202899
2	0	0	1	38.9561	-2.35884	-2.35934	-8.94333	-0.131434	9	0.0211004
2	0	0	1	39.3878	-2.38042	-2.381	-9.27019	-0.135377	9	0.0220723
2	0	0	1	39.8195	-2.40201	-2.40261	-9.58984	-0.139458	9	0.0230407
2	0	0	1	40.2511	-2.42359	-2.42411	-9.95418	-0.143681	9	0.02413
2	0	0	1	40.6828	-2.44517	-2.44567	-10.3851	-0.148084	9	0.0253986
2	0	0	1	41.1144	-2.46675	-2.46731	-10.8396	-0.152678	9	0.0267448
2	0	0	1	41.5461	-2.48834	-2.48887	-11.2922	-0.157473	9	0.0281048
2	0	0	1	41.9778	-2.50992	-2.51045	-11.8371	-0.162482	9	0.0297165
2	0	0	1	42.4094	-2.5315	-2.53203	-12.5225	-0.167752	9	0.0317072
2	0	0	1	42.8411	-2.55309	-2.55362	-13.2967	-0.173345	9	0.0339548
2	0	0	1	43.2727	-2.57467	-2.57518	-14.1032	-0.179276	9	0.0363183
2	0	0	1	43.7044	-2.59625	-2.59675	-15.032	-0.185582	9	0.0390343
2	0	0	1	44.1361	-2.61784	-2.61837	-16.08	-0.192314	9	0.0421034
2	0	0	1	44.5677	-2.63942	-2.63995	-17.2107	-0.199516	9	0.0454353
2	0	0	1	44.9994	-2.661	-2.66148	-18.4314	-0.207232	9	0.0490549
2	0	0	1	45.431	-2.68258	-2.68309	-19.8352	-0.215509	9	0.0532196
2	0	0	1	45.8627	-2.70417	-2.70461	-21.4532	-0.224435	9	0.0580227
2	0	0	1	46.2944	-2.72575	-2.72621	-23.2267	-0.2341	9	0.063321
2	0	0	1	46.726	-2.74733	-2.74775	-25.2031	-0.24457	9	0.0692518
2	0	0	1	47.1577	-2.76892	-2.7694	-27.5159	-0.255962	9	0.0762025
2	0	0	1	47.5893	-2.7905	-2.79093	-30.1698	-0.268426	9	0.0842018
2	0	0	1	48.021	-2.81208	-2.81251	-33.2064	-0.282129	9	0.0933935
2	0	0	1	48.4527	-2.83367	-2.8341	-36.6653	-0.297242	9	0.103913
2	0	0	1	48.8843	-2.85525	-2.85566	-40.7938	-0.313983	9	0.116493
2	0	0	1	49.316	-2.87683	-2.87727	-45.4815	-0.332636	9	0.130863
2	0	0	1	49.7476	-2.89841	-2.89883	-50.6541	-0.353426	9	0.146838
2	0	0	1	50.1793	-2.92	-2.92043	-56.4338	-0.376588	9	0.164811
2	0	0	1	50.611	-2.94158	-2.94201	-62.8984	-0.402407	9	0.185048
2	0	0	1	51.0426	-2.96316	-2.96356	-69.9104	-0.431144	9	0.207184
2	0	0	1	51.4743	-2.98475	-2.98517	-77.4015	-0.463049	9	0.231056
2	0	0	1	51.9059	-3.00633	-3.00672	-85.2464	-0.498283	9	0.256312
2	0	0	1	52.3376	-3.02791	-3.02829	-93.7679	-0.537094	9	0.283957
2	0	0	1	52.7693	-3.0495	-3.04988	-102.64	-0.579707	9	0.31304
2	0	0	1	53.2009	-3.07108	-3.07147	-111.76	-0.626263	9	0.343266
2	0	0	1	53.6326	-3.09266	-3.09304	-121.281	-0.676917	9	0.375128
2	0	0	1	54.0642	-3.11424	-3.11465	-131.531	-0.731923	9	0.409674
2	0	0	1	54.4959	-3.13583	-3.13618	-142.489	-0.791612	9	0.44687
2	0	0	1	54.9276	-3.15741	-3.15778	-154.186	-0.856285	9	0.486883
2	0	0	1	55.3592	-3.17899	-3.17934	-167.227	-0.926316	9	0.531673
2	0	0	1	55.7909	-3.20058	-3.20092	-180.688	-1.00215	9	0.578367
2	0	0	1	56.2225	-3.22216	-3.22244	-196.022	-1.08423	9	0.631669
2	0	0	1	56.6542	-3.24374	-3.24405	-212.356	-1.17315	9	0.688893
2	0	0	1	57.0859	-3.26533	-3.26562	-229.905	-1.2692	9	0.750782
2	0	0	1	57.5175	-3.28691	-3.28719	-247.952	-1.37315	9	0.815066
2	0	0	1	57.9492	-3.30849	-3.30883	-267.636	-1.48525	9	0.885564
2	0	0	1	58.3808	-3.33007	-3.33036	-288.816	-1.60602	9	0.961863
2	0	0	1	58.8125	-3.35166	-3.35196	-310.985	-1.73603	9	1.04241
2	0	0	1	59.2442	-3.37324	-3.37356	-334.961	-1.87583	9	1.13001
2	0	0	1	59.6758	-3.39482	-3.39513	-359.925	-2.02601	9	1.22199
2	0	0	1	60.1075	-3.41641	-3.4167	-385.332	-2.18717	9	1.31656
2	0	0	1	60.5391	-3.43799	-3.43823	-412.111	-2.35953	9	1.41693
2	0	0	1	60.9708	-3.45957	-3.45983	-439.334	-2.5435	9	1.52002
2	0	0	1	61.4025	-3.48116	-3.48139	-467.902	-2.73945	9	1.62895
2	0	0	0	61.7764	-3.50012	-3.50043	-493.301	-2.91931	9	1.72677